time,ax,ay,az,atotal
0.011490106582641602,0.17,-0.11,-0.87,0.89
0.01575303077697754,0.1,-0.38,-0.95,1.02
0.025043964385986328,0.1,-0.5,-0.75,0.9
0.03536510467529297,0.05,-0.48,-0.23,0.53
0.04472208023071289,0.04,-0.32,0.3,0.44
0.05518817901611328,-0.09,-0.09,0.57,0.58
0.07504606246948242,-0.26,0.15,0.54,0.61
0.07691717147827148,-0.36,0.37,0.53,0.73
0.08501505851745605,-0.28,0.51,0.57,0.81
0.09471321105957031,-0.1,0.67,0.75,1.01
0.10489010810852051,0.13,0.57,0.98,1.14
0.11504006385803223,0.21,0.13,1.07,1.09
0.12464618682861328,0.36,-0.19,1.16,1.22
0.13494014739990234,0.57,-0.31,1.06,1.24
0.1449570655822754,0.9,-0.2,0.67,1.13
0.15485811233520508,0.9,-0.14,0.08,0.91
0.17544221878051758,0.57,-0.24,-0.36,0.71
0.17738819122314453,0.5,-0.4,-0.57,0.85
0.18430709838867188,0.51,-0.46,-0.57,0.89
0.19432401657104492,0.58,-0.59,-0.39,0.91
0.20465707778930664,0.62,-0.81,-0.02,1.02
0.21448111534118652,0.75,-0.88,0.38,1.21
0.22394609451293945,0.8,-0.97,0.61,1.39
0.2344069480895996,0.81,-1.02,0.58,1.42
0.24507713317871094,0.76,-0.94,0.47,1.29
0.25451111793518066,0.69,-0.79,0.39,1.11
0.27626514434814453,0.71,-0.62,0.29,0.98
0.27812623977661133,0.76,-0.51,0.04,0.91
0.2839021682739258,0.7,-0.35,-0.34,0.85
0.29371213912963867,0.67,-0.3,-0.81,1.09
0.30390214920043945,0.51,-0.28,-0.99,1.14
0.3141000270843506,0.23,-0.31,-0.75,0.84
0.3237431049346924,0.14,-0.19,-0.33,0.4
0.334165096282959,0.0,-0.06,-0.31,0.31
0.34386110305786133,-1.02,0.88,-0.49,1.43
0.3552379608154297,-1.5,2.33,-0.89,2.91
0.3789691925048828,-0.82,1.56,-0.6,1.86
0.3808121681213379,0.33,-0.6,0.47,0.83
0.3832869529724121,-0.1,0.45,0.52,0.69
0.40117692947387695,0.06,-0.02,0.67,0.67
0.4032931327819824,-0.27,-0.41,0.44,0.65
0.41625118255615234,-0.21,-0.21,-0.13,0.32
0.4236900806427002,0.0,-0.42,-1.02,1.1
0.4338111877441406,0.24,-0.57,-1.91,2.0
0.4444432258605957,0.47,-0.54,-2.37,2.47
0.45471715927124023,0.67,-0.64,-2.23,2.41
0.47794198989868164,0.71,-0.78,-1.61,1.92
0.4798591136932373,-0.15,-0.43,0.15,0.47
0.4830920696258545,-0.83,0.12,2.36,2.5
0.4928910732269287,0.15,-0.83,1.36,1.6
0.5033092498779297,0.83,-1.36,0.27,1.61
0.5128281116485596,0.76,-1.18,0.2,1.41
0.5232760906219482,0.48,-0.85,0.38,1.04
0.533149242401123,0.17,-0.56,0.57,0.81
0.5438871383666992,0.0,-0.3,0.38,0.48
0.5535750389099121,0.05,-0.13,0.09,0.16
0.5772571563720703,0.13,-0.24,0.27,0.38
0.5790629386901855,0.01,-0.04,0.27,0.27
0.5828170776367188,-0.34,0.72,0.09,0.8
0.5926051139831543,-0.41,1.46,-0.06,1.51
0.6027610301971436,-0.33,1.91,-0.34,1.96
0.6125810146331787,-0.14,1.98,-0.2,1.99
0.6228599548339844,-0.11,1.73,0.18,1.74
0.6328170299530029,-0.28,1.39,0.52,1.51
0.6425619125366211,-0.32,1.17,1.07,1.61
0.6525769233703613,-0.3,0.97,0.73,1.25
0.669511079788208,-0.34,0.53,0.62,0.88
0.6719889640808105,-0.45,0.15,0.86,0.98
0.682380199432373,-0.34,-0.25,1.16,1.23
0.6925930976867676,-0.12,-0.57,1.34,1.46
0.7024080753326416,-0.07,-0.77,1.16,1.39
0.7119460105895996,-0.13,-1.09,0.51,1.21
0.7221910953521729,-0.24,-1.4,-0.53,1.51
0.7321019172668457,-0.16,-1.44,-1.25,1.91
0.7419271469116211,0.33,-0.89,-0.82,1.25
0.7522730827331543,0.16,0.43,-0.4,0.6
0.7727022171020508,-0.16,1.05,-0.63,1.23
0.7743730545043945,0.51,0.52,-0.69,1.0
0.7824759483337402,0.69,0.12,0.23,0.73
0.7922220230102539,0.11,-0.04,0.51,0.52
0.8021259307861328,-0.62,-0.57,-0.28,0.88
0.8120250701904297,-0.78,-0.8,-0.6,1.26
0.8220820426940918,-0.61,-0.9,-0.26,1.11
0.8318760395050049,-0.5,-0.42,-0.18,0.67
0.842292070388794,-0.43,0.25,-0.28,0.57
0.8522992134094238,-0.54,0.71,-0.17,0.9
0.8749642372131348,-0.55,0.88,0.06,1.03
0.8765912055969238,-0.36,0.14,0.35,0.52
0.8819599151611328,-0.43,-0.84,0.43,1.03
0.891289234161377,0.15,-1.04,0.51,1.16
0.9014420509338379,0.43,-0.47,0.54,0.83
0.9110522270202637,0.43,-0.26,0.67,0.83
0.9213771820068359,0.26,-0.5,1.08,1.21
0.9312350749969482,0.27,-0.76,1.15,1.4
0.9410829544067383,0.28,-0.74,0.92,1.21
0.9519309997558594,0.38,-0.54,0.59,0.88
0.9767069816589355,0.47,-0.5,0.09,0.69
0.9783391952514648,0.67,-0.56,-0.07,0.87
0.9811692237854004,1.73,0.09,1.93,2.59
0.9912340641021729,-0.67,0.57,1.42,1.67
1.001629114151001,0.03,-0.33,-0.53,0.62
1.0112740993499756,-1.35,0.08,1.13,1.76
1.0212631225585938,0.2,0.31,0.24,0.44
1.0308570861816406,-0.12,0.21,-0.52,0.57
1.040898084640503,-1.03,1.24,-1.05,1.92
1.0516209602355957,-0.08,2.16,-0.47,2.21
1.0740361213684082,0.71,1.42,0.92,1.83
1.075688123703003,0.61,0.65,1.64,1.86
1.0807011127471924,0.05,0.8,1.87,2.03
1.0909340381622314,-0.18,1.16,1.62,2.0
1.1010680198669434,-0.5,1.07,1.22,1.69
1.1105201244354248,-0.47,0.3,0.79,0.96
1.1207420825958252,1.56,-0.34,0.03,1.59
1.1302809715270996,3.15,0.1,-0.82,3.25
1.140545129776001,2.05,0.5,-0.9,2.29
1.1510262489318848,2.1,-0.19,-0.22,2.12
1.1752650737762451,1.65,-0.48,0.3,1.74
1.1769940853118896,0.97,-0.43,0.09,1.06
1.1800942420959473,0.97,-0.64,-0.03,1.16
1.1902410984039307,0.95,-0.96,-0.18,1.36
1.200139045715332,0.79,-1.81,-0.46,2.02
1.2103590965270996,1.87,-2.23,-1.04,3.09
1.2199950218200684,3.12,0.49,-0.63,3.22
1.2299489974975586,0.06,2.73,3.52,4.45
1.2399811744689941,0.43,0.25,0.79,0.93
1.2502601146697998,0.93,-0.47,-1.81,2.08
1.2738981246948242,0.46,1.16,1.15,1.69
1.2755231857299805,0.48,1.28,-0.73,1.54
1.2797532081604004,-0.1,1.08,-0.44,1.17
1.2898280620574951,-0.33,1.15,-0.79,1.43
1.29976224899292,-0.75,0.96,-1.2,1.71
1.3099610805511475,-0.91,0.83,-1.58,2.0
1.319782018661499,-1.22,0.75,-1.85,2.33
1.329524040222168,-1.18,0.61,-1.54,2.03
1.3399019241333008,-9.39,1.38,-0.45,9.5
1.3498830795288086,-17.37,-3.11,1.79,17.73
1.3689332008361816,-2.49,-4.36,2.52,5.61
1.370595932006836,3.19,-4.25,2.85,6.03
1.379223108291626,3.31,-3.51,2.84,5.59
1.389280080795288,3.3,-0.96,1.06,3.59
1.39947509765625,1.77,0.9,-1.09,2.26
1.4094560146331787,-1.72,1.48,-3.07,3.81
1.4199881553649902,-3.27,-0.07,-2.95,4.4
1.431006908416748,-3.91,-0.47,-0.97,4.05
1.4406230449676514,-3.14,-0.58,1.41,3.49
1.4511370658874512,-2.2,-1.05,2.9,3.78
1.4740660190582275,-1.39,-1.05,3.02,3.48
1.4756731986999512,-0.32,-0.97,2.83,3.0
1.4793870449066162,0.27,-0.82,1.78,1.97
1.4893391132354736,1.08,-0.5,0.59,1.32
1.499587059020996,1.65,-0.04,-0.82,1.84
1.508979082107544,1.77,0.15,-1.99,2.66
1.519629955291748,1.94,0.18,-2.06,2.83
1.5293490886688232,2.12,0.48,-1.37,2.56
1.5398311614990234,1.86,0.37,-0.41,1.94
1.5491900444030762,1.23,-0.07,0.59,1.36
1.568899154663086,0.35,-0.5,1.46,1.58
1.5705580711364746,-0.14,-1.03,2.02,2.27
1.578254222869873,0.04,-1.07,2.07,2.33
1.5885930061340332,0.41,-0.66,1.28,1.49
1.5988612174987793,0.56,-0.46,-0.12,0.73
1.6090500354766846,0.39,-0.11,-1.71,1.75
1.6189579963684082,-0.13,0.21,-2.71,2.72
1.6300840377807617,-0.44,-0.02,-3.07,3.1
1.6395750045776367,-0.66,-0.33,-2.39,2.5
1.6499791145324707,-0.99,-0.85,-1.6,2.06
1.672382116317749,-1.51,-1.56,-0.88,2.34
1.6741199493408203,-2.06,-2.01,-0.57,2.93
1.6779320240020752,-2.26,-1.95,-0.96,3.13
1.688709020614624,-1.89,-1.93,-1.72,3.2
1.6982951164245605,-1.24,-1.68,-2.0,2.89
1.707982063293457,-0.65,-1.55,-1.68,2.37
1.718292236328125,-0.49,-1.48,-1.34,2.05
1.7280020713806152,-1.0,-1.35,-1.26,2.1
1.7391562461853027,-1.8,-1.37,-1.12,2.52
1.748655080795288,-2.29,-1.42,-0.81,2.81
1.7707839012145996,-2.45,-1.29,-0.39,2.79
1.7723979949951172,-2.29,-0.89,-0.09,2.45
1.7774591445922852,-1.33,-0.66,-0.23,1.5
1.7879960536956787,-0.11,-0.38,-0.91,0.99
1.7975502014160156,0.45,0.23,-1.31,1.4
1.8074700832366943,0.59,0.44,-1.32,1.51
1.8177170753479004,0.5,0.7,-0.86,1.21
1.8278260231018066,0.33,0.81,-0.18,0.89
1.8387360572814941,0.03,0.84,0.31,0.89
1.8488092422485352,-0.21,1.08,0.2,1.11
1.8731400966644287,-0.15,1.02,-0.05,1.03
1.8748900890350342,-0.21,0.86,0.33,0.94
1.877058982849121,-0.44,0.66,1.2,1.43
1.8873291015625,-0.7,0.29,2.08,2.21
1.8974831104278564,-0.63,0.08,2.67,2.74
1.9070210456848145,-0.27,0.08,2.57,2.58
1.9170570373535156,-0.1,0.47,2.06,2.11
1.9273450374603271,-0.1,0.64,1.76,1.87
1.9388089179992676,0.04,0.51,1.42,1.5
1.9485201835632324,0.3,0.03,1.53,1.55
1.9691791534423828,0.09,0.21,1.83,1.84
1.9708831310272217,-0.24,0.32,1.74,1.78
1.9766631126403809,-0.76,0.29,1.8,1.97
1.9869370460510254,-0.63,-0.28,1.7,1.83
1.9972031116485596,-0.07,-0.36,1.77,1.8
2.007312059402466,0.26,-0.19,1.32,1.35
2.016818046569824,0.14,0.0,0.64,0.65
2.0266590118408203,-0.08,0.02,0.13,0.15
2.0372819900512695,-0.61,0.11,0.56,0.83
2.0471601486206055,-1.4,0.14,1.74,2.23
2.0692172050476074,-2.46,-0.01,2.88,3.78
2.0707271099090576,-3.54,-0.19,3.49,4.97
2.076643943786621,-3.62,-0.25,2.78,4.57
2.086609125137329,-2.24,-0.07,1.74,2.83
2.0963990688323975,-0.47,0.26,0.7,0.88
2.1068549156188965,1.47,0.29,-0.46,1.56
2.1167731285095215,2.41,0.83,-1.91,3.18
2.1267361640930176,2.26,1.61,-2.17,3.52
2.150125026702881,1.32,2.02,-2.09,3.19
2.154158115386963,1.36,1.52,-1.11,2.32
2.1754910945892334,1.17,-0.6,-0.78,1.52
2.177448034286499,1.72,-1.2,-0.67,2.2
2.183129072189331,7.01,-0.03,4.58,8.37
2.185750961303711,3.48,0.19,5.02,6.11
2.1997931003570557,-0.01,0.78,0.06,0.78
2.2058820724487305,-0.58,0.19,-0.78,0.99
2.216188907623291,0.43,0.5,-2.8,2.87
2.225553035736084,0.4,0.64,-5.15,5.2
2.2369232177734375,3.55,0.67,-7.49,8.31
2.247354030609131,4.66,3.13,-5.96,8.18
2.27183198928833,4.54,3.38,-1.45,5.84
2.273606061935425,4.26,0.87,1.1,4.48
2.275592088699341,3.04,-0.09,0.7,3.12
2.285776138305664,1.38,0.3,-0.14,1.41
2.295725107192993,1.02,-0.07,0.06,1.02
2.3056468963623047,0.88,-0.58,0.3,1.09
2.316009044647217,0.61,-0.55,0.94,1.24
2.3261210918426514,0.2,-0.49,1.03,1.15
2.335440158843994,-0.73,-0.21,0.17,0.77
2.3466382026672363,-1.28,-0.1,-0.8,1.51
2.3665761947631836,-0.77,-0.27,-0.57,0.99
2.3693599700927734,0.16,-0.17,1.17,1.19
2.3756141662597656,0.74,-0.1,2.04,2.17
2.3852572441101074,0.69,0.12,1.63,1.77
2.3951339721679688,0.56,0.63,0.78,1.14
2.4052271842956543,0.94,1.03,0.14,1.4
2.4178810119628906,1.48,1.11,-0.15,1.85
2.428089141845703,1.32,1.29,0.22,1.85
2.437988042831421,1.02,1.35,-0.13,1.69
2.4657230377197266,1.3,0.15,-0.47,1.39
2.4694130420684814,0.88,-0.62,-0.34,1.12
2.4725961685180664,0.03,-0.32,0.07,0.32
2.4781899452209473,-0.9,0.76,0.91,1.48
2.829747200012207,-1.35,1.61,1.55,2.61
2.8327622413635254,-0.97,1.08,1.68,2.22
2.8348731994628906,-0.45,-0.76,0.75,1.15
2.836923122406006,-2.96,-5.13,-8.03,9.97
2.8385109901428223,-3.94,-1.55,-3.6,5.55
2.8396220207214355,-2.21,0.25,0.46,2.27
2.8419511318206787,-1.72,-1.58,-0.77,2.45
2.8424739837646484,-2.68,-1.57,-2.18,3.79
2.8431220054626465,-3.03,-1.46,-0.73,3.44
2.8436989784240723,-1.81,-1.7,1.57,2.93
2.8443710803985596,-0.23,-1.76,3.23,3.68
2.844938039779663,-0.24,-1.63,5.11,5.36
2.845781087875366,0.1,-2.61,5.1,5.72
2.8465030193328857,1.73,-2.24,3.24,4.3
2.8471460342407227,1.96,-0.84,0.6,2.21
2.8476428985595703,0.94,-0.23,-2.15,2.35
2.8497509956359863,0.31,-0.23,-3.21,3.23
2.850321054458618,0.73,-0.38,-2.33,2.47
2.850843906402588,2.56,0.69,0.1,2.65
2.851365089416504,2.05,1.48,0.74,2.63
2.8520750999450684,1.03,1.47,0.21,1.8
2.8525609970092773,0.39,1.4,0.69,1.6
2.853087902069092,-0.18,1.94,0.93,2.15
2.8535690307617188,-1.4,2.19,0.17,2.6
2.8540420532226562,-1.8,2.41,-0.48,3.04
2.8546080589294434,-0.7,3.33,-0.52,3.44
2.8565239906311035,0.37,3.31,-0.62,3.38
2.857029914855957,0.4,3.04,-0.9,3.19
2.857602119445801,0.21,1.19,-0.33,1.25
2.85835599899292,2.28,-0.75,0.23,2.41
2.858880043029785,3.18,-2.75,-0.52,4.23
2.859386920928955,3.55,-2.14,-1.22,4.32
2.8599982261657715,3.12,-2.17,-1.82,4.21
2.86049222946167,0.8,-2.28,-1.74,2.97
2.8609719276428223,-0.7,-2.33,-0.39,2.46
2.8614840507507324,-1.92,-1.44,1.6,2.88
2.863467216491699,-4.38,1.12,2.5,5.16
2.863992214202881,-3.84,2.47,1.46,4.79
2.8655519485473633,-2.68,-0.23,3.57,4.46
2.8760170936584473,-3.95,4.22,2.52,6.3
2.886021137237549,-3.11,2.75,-2.1,4.65
2.8965702056884766,-5.57,3.16,-2.67,6.93
2.907382011413574,-4.93,4.03,-0.55,6.39
2.918206214904785,-3.3,4.21,0.66,5.38
2.9269142150878906,-4.15,5.14,0.51,6.62
2.943618059158325,-4.42,5.72,-1.92,7.47
2.9593920707702637,-6.25,4.27,-0.16,7.57
2.965700149536133,-12.62,5.0,-4.24,14.22
2.9685139656066895,-17.72,1.23,-1.52,17.82
2.981161117553711,3.68,0.14,1.53,3.98
2.989931106567383,14.27,7.02,0.8,15.92
2.9993772506713867,10.28,1.32,4.23,11.19
3.006632089614868,6.63,-1.62,4.82,8.35
3.0169992446899414,3.76,-1.94,0.8,4.3
3.0268330574035645,3.39,-3.52,-0.98,4.98
3.036309242248535,3.27,-6.09,-0.86,6.96
3.055392026901245,1.62,-8.32,-2.55,8.85
3.0568490028381348,1.07,-8.2,-2.15,8.54
3.0668301582336426,1.73,-8.84,-2.12,9.25
3.076646089553833,1.45,-8.89,-1.88,9.2
3.0864882469177246,1.42,-8.8,-1.64,9.06
3.1002869606018066,1.89,-7.35,-1.03,7.65
3.105844020843506,2.18,-5.42,-1.52,6.03
3.120176076889038,3.11,-4.07,-1.02,5.22
3.1281380653381348,3.97,-3.2,1.08,5.21
3.141688108444214,5.32,-2.1,3.34,6.62
3.1592540740966797,5.55,-0.44,4.35,7.06
3.1648621559143066,4.55,-1.02,-0.2,4.66
3.167854070663452,1.5,-2.98,-0.53,3.37
3.185314178466797,-5.48,1.11,-0.39,5.6
3.1877810955047607,-10.39,5.57,0.35,11.79
3.199244976043701,-8.34,9.81,-0.14,12.87
3.208686113357544,-2.98,6.75,1.18,7.47
3.2192139625549316,-0.13,1.84,-0.47,1.9
3.228943109512329,0.89,-0.11,-0.81,1.2
3.238708972930908,0.08,-1.99,2.25,3.0
3.263040065765381,0.99,-1.42,-0.47,1.79
3.26851224899292,0.84,-0.01,-2.78,2.9
3.27449107170105,1.48,-0.16,-0.26,1.51
3.2792110443115234,1.48,-1.38,-0.68,2.13
3.288687229156494,0.64,-0.67,-0.05,0.92
3.2989959716796875,-1.1,-0.21,-0.92,1.44
3.3085532188415527,-0.57,-2.42,-0.8,2.61
3.318803071975708,0.81,-3.0,0.75,3.19
3.329113006591797,0.62,-1.04,0.62,1.36
3.339026927947998,0.21,0.63,0.42,0.78
3.3657491207122803,-0.13,1.68,0.6,1.78
3.3713221549987793,-0.68,2.19,0.62,2.37
3.376479148864746,-1.09,1.89,0.66,2.27
3.38140606880188,-1.71,1.5,0.7,2.37
3.388627052307129,-1.65,1.92,1.31,2.85
3.398618221282959,-0.38,5.59,1.13,5.71
3.4082798957824707,-0.35,5.12,-2.74,5.81
3.4194412231445312,-0.82,1.76,-1.96,2.75
3.428662061691284,-0.06,-0.06,2.53,2.53
3.4382519721984863,-0.2,-1.68,3.05,3.48
3.477065086364746,-0.41,-2.61,1.65,3.11
3.4831390380859375,-0.31,-3.54,-0.28,3.56
3.4889180660247803,-0.82,-4.59,-0.17,4.66
3.495060920715332,-0.66,-2.95,1.95,3.59
3.5012221336364746,0.82,-0.97,0.65,1.42
3.5097880363464355,1.16,1.35,-1.11,2.09
3.5313801765441895,1.32,4.19,-1.47,4.63
3.536574125289917,2.07,5.09,-1.78,5.77
3.5399270057678223,2.23,4.49,-1.86,5.34
3.5433011054992676,1.51,3.29,-1.19,3.81
3.5660810470581055,-0.97,9.61,1.17,9.72
3.5704500675201416,-0.89,10.76,4.45,11.67
3.578395128250122,-0.88,0.08,1.3,1.57
3.5838451385498047,-1.16,-0.21,-0.84,1.44
3.5892961025238037,-1.0,-2.79,-1.19,3.19
3.5977110862731934,-0.57,-5.84,-0.68,5.9
3.607408046722412,-0.03,-4.74,-0.75,4.79
3.6266069412231445,0.8,-1.25,-0.41,1.53
3.6489450931549072,1.05,-0.85,0.08,1.35
3.6516919136047363,0.7,-3.37,-0.41,3.46
3.6633291244506836,0.09,-3.94,0.09,3.94
3.667631149291992,-0.49,-3.51,0.5,3.57
3.671349048614502,-0.55,-3.9,0.08,3.93
3.6761012077331543,-0.41,-2.76,-0.05,2.79
3.6847891807556152,-0.43,-0.87,0.01,0.97
3.694593906402588,-0.07,0.0,-0.01,0.07
3.7046451568603516,-0.11,1.61,-0.66,1.74
3.715184211730957,-0.77,2.09,-1.61,2.74
3.724824905395508,-0.98,1.23,-0.6,1.68
3.736997127532959,-1.2,-1.72,1.94,2.85
3.7635059356689453,-0.58,-2.98,0.92,3.17
3.770233154296875,0.58,-2.28,0.31,2.37
3.776552200317383,1.07,-1.58,0.66,2.01
3.7818169593811035,1.01,-1.19,0.5,1.63
3.787148952484131,0.71,-0.56,0.08,0.9
3.7964272499084473,1.21,1.66,-0.89,2.23
3.807636022567749,1.57,4.22,-1.82,4.85
3.8164730072021484,-0.6,22.99,-1.38,23.03
3.8260622024536133,-5.98,21.59,-0.8,22.41
3.8372912406921387,-4.78,11.55,-1.59,12.6
3.863511085510254,-4.84,0.74,-3.16,5.82
3.868760108947754,-4.18,-12.56,3.46,13.68
3.8746790885925293,-3.04,-24.91,6.47,25.91
3.8798720836639404,2.86,-15.81,-1.03,16.09
3.88564395904541,7.54,-6.91,-3.68,10.86
3.8956332206726074,7.3,-1.37,1.09,7.5
3.905755043029785,1.8,0.86,2.01,2.83
3.9163661003112793,-1.4,1.48,0.01,2.03
3.925352096557617,-1.46,1.59,1.36,2.55
3.933856964111328,-1.92,2.74,2.68,4.28
3.948019027709961,-1.9,3.2,-0.39,3.74
3.9523138999938965,-0.01,-1.06,-3.56,3.71
3.9632811546325684,0.22,-0.42,-1.89,1.94
3.976722240447998,-0.6,-0.45,-0.03,0.75
3.9853649139404297,-1.17,-1.33,1.06,2.06
3.995457172393799,-0.09,-1.1,0.87,1.4
4.005738019943237,1.38,0.17,-0.14,1.39
4.015405178070068,2.18,-0.32,-0.54,2.26
4.025386095046997,1.48,-0.03,1.65,2.21
4.035015106201172,0.81,0.36,0.4,0.97
4.066655158996582,0.87,-0.37,-0.81,1.24
4.071778059005737,0.14,-0.21,0.69,0.73
4.077080249786377,-0.55,-0.36,-0.04,0.65
4.084672927856445,-0.74,-0.57,-0.37,1.0
4.089831113815308,-0.88,-0.21,-0.25,0.93
4.095031023025513,-0.45,0.28,-0.42,0.67
4.10488224029541,0.74,6.74,-0.43,6.79
4.115027904510498,-0.29,14.2,0.38,14.2
4.124768018722534,-2.78,0.88,0.94,3.06
4.13460111618042,-0.79,0.21,0.68,1.06
4.184566020965576,0.02,2.07,-0.12,2.07
4.187392234802246,-0.05,1.32,-0.77,1.52
4.190099239349365,0.1,1.72,-0.39,1.76
4.198590040206909,-0.01,3.28,0.4,3.3
4.202600955963135,0.69,1.01,-0.32,1.26
4.205122947692871,1.6,1.23,-1.59,2.56
4.208381175994873,1.15,0.76,-1.51,2.04
4.212067127227783,0.81,1.39,-0.47,1.67
4.225774049758911,0.11,2.2,0.01,2.2
4.234772205352783,-2.02,7.11,5.53,9.23
4.2564921379089355,-2.36,7.73,4.97,9.48
4.265906095504761,-1.79,2.34,-2.35,3.76
4.2733001708984375,-0.17,0.96,-2.68,2.85
4.279653072357178,0.74,-2.84,-0.98,3.09
4.284511089324951,0.1,-5.97,1.49,6.15
4.292962074279785,-0.22,-3.48,1.08,3.65
4.3159050941467285,-0.76,-2.94,0.63,3.1
4.324334144592285,-0.65,-5.39,0.9,5.5
4.329598903656006,-0.58,-10.26,-0.46,10.28
4.335576057434082,-0.18,-6.16,-1.2,6.27
4.34699010848999,0.46,-5.15,0.22,5.17
4.350715160369873,0.86,-3.02,-0.4,3.16
4.363646030426025,0.16,-0.78,-1.54,1.73
4.371401071548462,-1.28,-1.21,-1.31,2.19
4.381269931793213,-1.1,-2.11,-0.64,2.46
4.390810012817383,-0.35,-3.39,0.15,3.41
4.400740146636963,0.02,-2.16,1.09,2.41
4.4106950759887695,1.5,-0.53,-0.66,1.72
4.420164108276367,1.79,-0.84,-0.02,1.97
4.430971145629883,0.89,-2.34,0.54,2.56
4.4497599601745605,0.51,-3.13,0.36,3.19
4.452282905578613,1.08,-2.23,0.17,2.48
4.4638941287994385,1.47,-1.55,0.03,2.13
4.476628065109253,1.42,-1.45,-0.01,2.02
4.484373092651367,1.36,-1.3,0.01,1.88
4.493561029434204,1.76,-2.05,0.02,2.7
4.503183126449585,2.9,-3.61,-0.11,4.63
4.513078212738037,4.63,-4.49,-0.58,6.47
4.523085117340088,2.57,-0.77,0.23,2.69
4.534646034240723,0.69,1.31,1.21,1.91
4.5574631690979,-0.57,2.54,1.38,2.94
4.562313079833984,-1.19,3.66,1.7,4.2
4.567194938659668,-1.54,3.26,0.7,3.67
4.573087215423584,-2.85,3.86,0.22,4.8
4.584434986114502,-4.39,5.27,0.2,6.86
4.593578100204468,-4.96,4.59,-1.28,6.87
4.60329008102417,-4.0,1.95,-1.88,4.83
4.612624168395996,-2.68,0.86,-0.99,2.98
4.622481107711792,-1.31,0.47,-0.76,1.58
4.632556915283203,0.55,-0.72,-0.5,1.03
366.3009271621704,1.81,-1.65,-0.14,2.45
366.3017120361328,1.96,-1.96,-0.14,2.77
366.3026099205017,1.39,-1.8,-0.34,2.29
366.30327105522156,0.78,-1.1,0.17,1.35
366.3039391040802,0.32,-0.4,0.12,0.52
366.30464696884155,0.01,0.16,0.22,0.27
366.3055970668793,-0.16,0.57,0.39,0.7
366.30617904663086,-0.13,0.71,0.41,0.83
366.3066680431366,-0.03,0.54,0.27,0.6
366.30715012550354,0.1,0.19,0.16,0.26
366.30966424942017,0.14,-0.2,0.09,0.26
366.310250043869,-0.05,-0.65,0.03,0.65
366.3109121322632,-0.25,-0.84,0.13,0.88
366.31177520751953,-0.08,-0.63,0.51,0.81
366.3124921321869,0.19,-0.35,0.56,0.68
366.3132572174072,0.6,-0.04,0.35,0.69
366.3138551712036,1.02,0.25,0.39,1.12
366.3144190311432,1.8,-0.11,1.33,2.24
366.31531620025635,0.73,0.22,1.5,1.68
366.3160309791565,-0.28,0.23,0.75,0.83
366.3191080093384,-0.2,-0.33,0.34,0.51
366.31993198394775,-0.23,-0.26,0.29,0.45
366.32068610191345,-0.14,-0.06,0.21,0.25
366.32162714004517,0.09,0.06,0.12,0.16
366.32238721847534,0.25,0.28,0.27,0.46
366.3231711387634,0.35,0.51,0.44,0.75
366.3239040374756,0.4,0.64,0.51,0.91
366.32466316223145,0.44,0.62,0.5,0.9
366.3252811431885,0.44,0.56,0.56,0.9
366.3260250091553,0.29,0.42,0.54,0.74
366.3292999267578,0.21,0.24,0.44,0.54
366.3298182487488,0.07,0.12,0.44,0.46
366.33029413223267,-0.09,0.07,0.44,0.45
366.3308529853821,-0.16,0.11,0.38,0.42
366.3313970565796,-0.17,0.19,0.32,0.4
366.33193492889404,-0.15,0.26,0.25,0.39
366.3327479362488,-0.11,0.3,0.19,0.37
366.3333320617676,-0.06,0.29,0.14,0.32
366.33388090133667,-0.04,0.24,0.1,0.26
366.3343529701233,-0.04,0.19,0.07,0.2
366.3368082046509,0.02,0.16,0.05,0.16
366.33734703063965,0.04,0.18,0.02,0.18
366.3379211425781,0.0,0.28,0.1,0.29
366.338427066803,0.01,0.3,0.17,0.34
366.3389482498169,-0.02,0.27,0.18,0.32
366.33942890167236,0.0,0.2,0.17,0.26
366.3399851322174,-0.02,0.13,0.16,0.2
366.34056091308594,-0.06,0.15,0.19,0.24
366.3411910533905,-0.08,0.16,0.2,0.26
366.3417820930481,-0.1,0.14,0.15,0.22
366.34439516067505,-0.15,0.08,0.09,0.19
366.3448600769043,-0.19,0.03,0.02,0.19
366.3453121185303,-0.25,0.05,0.04,0.25
366.3462071418762,-0.18,0.03,0.11,0.21
366.34675121307373,-0.06,0.02,0.14,0.15
366.3471920490265,0.04,0.04,0.15,0.16
366.34763407707214,0.06,0.12,0.22,0.25
366.3480749130249,0.03,0.24,0.26,0.35
366.3485779762268,0.03,0.39,0.31,0.49
366.3490300178528,-0.01,0.52,0.3,0.6
366.3509941101074,-0.04,0.55,0.24,0.6
366.3514609336853,-0.03,0.45,0.17,0.48
366.3526349067688,0.03,0.26,0.06,0.26
366.3531231880188,0.12,0.1,-0.04,0.16
366.3537292480469,0.16,0.0,-0.14,0.21
366.35432410240173,0.26,0.05,-0.15,0.3
366.35478806495667,0.31,0.16,-0.06,0.35
366.3554410934448,0.29,0.21,0.04,0.36
366.3561282157898,0.27,0.21,0.15,0.37
366.35722303390503,0.16,0.31,0.25,0.42
366.3600950241089,0.08,0.34,0.28,0.44
366.36059308052063,0.05,0.38,0.33,0.5
366.36104822158813,-0.02,0.36,0.24,0.43
366.36147904396057,-0.13,0.35,0.13,0.39
366.36183500289917,-0.18,0.35,0.2,0.44
366.36223697662354,-0.17,0.3,0.31,0.46
366.3626389503479,-0.12,0.24,0.34,0.43
366.36303424835205,-0.03,0.18,0.3,0.35
366.3634250164032,-0.01,0.1,0.21,0.23
366.36391401290894,0.03,0.07,0.08,0.11
366.36576223373413,-0.05,0.11,0.04,0.12
366.36617708206177,-0.18,0.06,0.02,0.19
366.36657190322876,-0.37,0.07,-0.02,0.37
366.36697006225586,-0.35,-0.01,-0.07,0.35
366.36736822128296,-0.41,-0.05,-0.12,0.43
366.36776304244995,-0.39,-0.07,-0.14,0.42
366.3681581020355,-0.4,-0.02,-0.09,0.41
366.3685359954834,-0.36,-0.14,-0.16,0.41
366.36900424957275,-0.27,-0.16,-0.28,0.42
366.36943006515503,-0.03,-0.17,-0.32,0.36
366.37119722366333,0.19,-0.22,-0.32,0.43
366.37161111831665,0.31,-0.39,-0.22,0.54
366.3719720840454,0.37,-0.39,-0.33,0.63
366.37239599227905,0.32,-0.22,-0.32,0.5
366.3727922439575,0.43,-0.34,-0.33,0.63
366.37318897247314,0.31,-0.25,-0.44,0.59
366.3735840320587,0.22,-0.06,-0.47,0.52
366.3739790916443,0.16,0.04,-0.61,0.63
366.374370098114,0.19,0.12,-0.26,0.34
366.3747591972351,0.1,0.25,0.01,0.26
366.3765480518341,0.02,0.24,0.05,0.24
366.37695121765137,-0.01,0.18,-0.08,0.19
366.37729811668396,-0.01,0.16,-0.15,0.21
366.37766790390015,0.04,0.05,-0.2,0.21
366.37806224823,0.03,-0.01,-0.24,0.24
366.37840700149536,0.1,-0.12,-0.24,0.28
366.37875509262085,0.16,-0.12,-0.26,0.32
366.37915110588074,0.23,-0.09,-0.24,0.34
366.3794960975647,0.32,-0.15,-0.24,0.42
366.37991523742676,0.28,-0.11,-0.22,0.37
366.3829069137573,0.24,-0.07,-0.19,0.31
366.38399600982666,0.25,-0.07,-0.16,0.3
366.38457107543945,0.19,-0.08,-0.14,0.24
366.38508105278015,0.15,-0.13,-0.09,0.21
366.3862850666046,0.09,-0.14,-0.11,0.19
366.3868131637573,0.08,-0.19,-0.11,0.23
366.3872399330139,0.04,-0.16,-0.09,0.18
366.3877000808716,0.06,-0.11,-0.08,0.14
366.3881001472473,0.07,-0.07,-0.07,0.12
366.3885190486908,0.01,-0.05,-0.12,0.13
366.39040517807007,-0.04,-0.06,-0.11,0.13
366.39077615737915,-0.04,-0.08,-0.11,0.14
366.39123702049255,-0.08,-0.11,-0.11,0.17
366.39227294921875,-0.09,-0.12,-0.08,0.17
366.39282512664795,-0.1,-0.11,-0.06,0.16
366.3932480812073,-0.16,-0.12,-0.05,0.2
366.3936462402344,-0.26,-0.15,-0.06,0.3
366.3940510749817,-0.3,-0.22,-0.1,0.38
366.3944492340088,-0.28,-0.24,-0.18,0.41
366.3948481082916,-0.24,-0.27,-0.24,0.43
366.39663791656494,-0.18,-0.3,-0.29,0.45
366.39698696136475,-0.14,-0.25,-0.29,0.4
366.3973789215088,-0.12,-0.2,-0.25,0.34
366.3977711200714,-0.13,-0.17,-0.2,0.29
366.398166179657,-0.1,-0.14,-0.12,0.2
366.3985571861267,-0.09,-0.1,-0.02,0.13
366.39889311790466,-0.07,-0.1,0.05,0.13
366.39937806129456,-0.05,-0.12,0.11,0.17
366.39975595474243,-0.05,-0.11,0.15,0.19
366.40021896362305,-0.07,-0.13,0.15,0.21
366.4022002220154,-0.09,-0.12,0.11,0.18
366.4026699066162,-0.08,-0.11,0.07,0.15
366.403076171875,-0.1,-0.07,0.09,0.15
366.40355110168457,-0.12,-0.09,0.12,0.19
366.40393710136414,-0.11,-0.08,0.12,0.18
366.40436697006226,-0.13,-0.06,0.14,0.2
366.66790294647217,-0.09,-0.1,0.15,0.2
366.6928160190582,-0.07,-0.06,0.16,0.18
366.6949429512024,-0.07,0.01,0.18,0.19
366.69679403305054,-0.06,0.0,0.13,0.14
366.7232241630554,-0.06,-0.02,0.08,0.1
366.7254340648651,-0.07,-0.02,0.04,0.08
366.7270212173462,-0.06,-0.08,0.01,0.1
366.72965812683105,-0.1,-0.09,0.0,0.13
366.7334101200104,-0.1,-0.11,-0.01,0.14
366.736426115036,-0.1,-0.12,-0.04,0.16
366.7382011413574,-0.06,-0.13,-0.08,0.16
366.7415781021118,-0.03,-0.13,-0.13,0.18
366.7446641921997,-0.05,-0.15,-0.13,0.2
366.74761605262756,-0.06,-0.15,-0.11,0.19
366.75954008102417,-0.06,-0.13,-0.05,0.15
366.76089811325073,-0.1,-0.15,-0.01,0.18
366.7793679237366,-0.11,-0.15,0.05,0.19
366.78089809417725,-0.11,-0.16,0.07,0.2
366.7867181301117,-0.07,-0.18,0.08,0.2
366.78792905807495,-0.03,-0.17,0.09,0.19
366.80349493026733,0.0,-0.17,0.09,0.19
366.8050310611725,0.02,-0.12,0.1,0.15
366.82051610946655,0.03,-0.1,0.09,0.13
366.822331905365,0.03,-0.07,0.11,0.13
366.8322470188141,0.02,-0.07,0.09,0.11
366.8362510204315,0.02,-0.13,0.07,0.14
366.83778619766235,-0.01,-0.09,0.07,0.11
366.83931493759155,0.04,-0.1,0.05,0.11
366.85409808158875,0.05,-0.08,0.05,0.1
366.8565950393677,0.06,-0.03,0.06,0.09
366.8697021007538,0.06,-0.02,0.08,0.1
366.87104511260986,0.07,0.02,0.12,0.14
366.8866982460022,0.04,0.04,0.16,0.16
366.8881869316101,0.01,0.05,0.16,0.16
366.90366315841675,0.04,0.04,0.16,0.16
366.90500020980835,0.05,0.04,0.14,0.15
366.9197702407837,0.03,0.04,0.13,0.13
366.9213089942932,0.01,0.04,0.11,0.11
366.9363920688629,0.03,0.03,0.1,0.1
366.9381101131439,0.06,0.01,0.11,0.12
366.9533591270447,0.07,-0.01,0.1,0.12
366.95470809936523,0.08,-0.01,0.12,0.14
366.9705400466919,0.09,-0.01,0.12,0.15
366.97219800949097,0.08,-0.01,0.12,0.14
366.9865391254425,0.06,-0.01,0.12,0.13
366.9878160953522,0.06,0.0,0.13,0.14
367.0033001899719,0.06,0.01,0.12,0.13
367.00450897216797,0.04,0.02,0.09,0.1
367.02036905288696,0.01,0.04,0.06,0.07
367.0221881866455,0.0,0.04,0.02,0.04
367.0366201400757,0.0,0.0,0.02,0.02
367.0378851890564,0.0,-0.01,0.04,0.04
367.0553312301636,0.01,0.0,0.03,0.03
367.0585632324219,0.03,0.01,0.03,0.04
367.0703070163727,0.05,0.03,0.05,0.07
367.07213711738586,0.07,0.03,0.05,0.09
367.0870780944824,0.08,0.04,0.06,0.1
367.0889821052551,0.1,0.04,0.05,0.11
367.1084442138672,0.11,0.03,0.04,0.12
367.11322498321533,0.14,0.02,0.07,0.15
367.12566614151,0.12,0.02,0.09,0.15
367.1298441886902,0.12,0.03,0.1,0.15
367.141056060791,0.09,0.03,0.09,0.13
367.14528608322144,0.06,0.04,0.1,0.12
367.15602111816406,0.0,0.04,0.08,0.08
367.1575331687927,-0.03,0.05,0.05,0.07
367.17316913604736,-0.03,0.04,0.06,0.07
367.1751399040222,-0.04,0.02,0.05,0.06
367.1897029876709,-0.04,0.0,0.02,0.04
367.191792011261,-0.05,-0.02,0.0,0.05
367.20839405059814,-0.02,-0.05,-0.02,0.05
367.2128438949585,-0.01,-0.05,-0.01,0.05
367.2231900691986,0.0,-0.06,0.01,0.06
367.2267870903015,0.02,-0.05,0.05,0.07
367.23865604400635,0.05,-0.04,0.09,0.11
367.240492105484,0.07,-0.05,0.12,0.14
367.25658798217773,0.05,-0.07,0.15,0.17
367.25844621658325,0.05,-0.07,0.17,0.19
367.2745931148529,0.04,-0.06,0.18,0.19
367.27712392807007,0.0,-0.05,0.16,0.16
367.28986120224,-0.04,-0.05,0.16,0.17
367.292799949646,-0.05,-0.06,0.16,0.17
367.30567693710327,-0.06,-0.06,0.15,0.17
367.3069360256195,-0.06,-0.05,0.14,0.16
367.31533908843994,-0.05,-0.05,0.16,0.17
367.32177805900574,-0.04,-0.06,0.17,0.18
367.32292890548706,-0.03,-0.07,0.18,0.19
367.33949613571167,-0.03,-0.08,0.18,0.19
367.3403260707855,-0.04,-0.08,0.17,0.19
367.34135913848877,-0.04,-0.1,0.18,0.2
367.3560709953308,-0.04,-0.1,0.17,0.2
367.3567590713501,-0.04,-0.1,0.18,0.2
367.3711531162262,-0.04,-0.09,0.19,0.21
367.3726501464844,-0.03,-0.1,0.18,0.2
367.3880171775818,0.0,-0.08,0.17,0.18
367.38945412635803,0.0,-0.08,0.16,0.17
367.40714502334595,0.01,-0.07,0.15,0.16
367.4091410636902,0.0,-0.05,0.13,0.13
367.4265570640564,0.02,-0.04,0.12,0.12
367.42952609062195,0.01,-0.04,0.12,0.12
367.4396119117737,0.01,-0.03,0.11,0.11
367.4420051574707,-0.01,-0.02,0.1,0.1
367.4444389343262,-0.01,0.0,0.09,0.09
367.45452904701233,0.0,0.03,0.08,0.08
367.4652121067047,0.01,0.05,0.08,0.09
367.47213912010193,0.03,0.08,0.07,0.11
367.47380113601685,0.04,0.11,0.08,0.14
367.48996019363403,0.05,0.11,0.07,0.13
367.49139308929443,0.07,0.1,0.07,0.14
367.5067892074585,0.09,0.09,0.09,0.15
367.50847601890564,0.1,0.09,0.1,0.16
367.52209997177124,0.09,0.12,0.11,0.18
367.52449321746826,0.08,0.13,0.12,0.19
367.5389142036438,0.08,0.13,0.12,0.19
367.55018305778503,0.1,0.11,0.13,0.19
367.55159997940063,0.09,0.1,0.13,0.18
367.55497002601624,0.1,0.09,0.11,0.17
367.5568552017212,0.11,0.08,0.07,0.15
367.55867099761963,0.13,0.07,0.03,0.15
367.5601201057434,0.14,0.06,0.02,0.15
367.5614700317383,0.14,0.07,-0.04,0.16
367.5628800392151,0.13,0.07,-0.08,0.16
367.5640139579773,0.12,0.06,-0.08,0.15
367.5654921531677,0.09,0.03,-0.1,0.13
367.5767660140991,0.03,0.0,-0.1,0.1
367.57787322998047,0.02,-0.03,-0.05,0.06
367.5890910625458,0.02,-0.06,-0.01,0.06
367.59000301361084,0.01,-0.09,0.01,0.09
367.60651206970215,-0.02,-0.11,0.02,0.11
367.60802602767944,-0.05,-0.11,0.01,0.12
367.62238597869873,-0.1,-0.11,-0.01,0.14
367.6237680912018,-0.13,-0.11,-0.04,0.17
367.62562704086304,-0.17,-0.12,-0.07,0.21
367.63801193237305,-0.18,-0.12,-0.08,0.23
367.64790511131287,-0.18,-0.12,-0.08,0.23
367.6486871242523,-0.19,-0.13,-0.07,0.24
367.65537118911743,-0.17,-0.13,-0.07,0.22
367.6565001010895,-0.16,-0.15,-0.03,0.22
367.6718339920044,-0.15,-0.13,0.01,0.19
367.6733601093292,-0.14,-0.11,0.06,0.18
367.6740651130676,-0.1,-0.1,0.12,0.18
367.68877506256104,-0.07,-0.1,0.14,0.18
367.6898798942566,-0.04,-0.08,0.15,0.17
367.70842695236206,-0.01,-0.07,0.12,0.13
367.7171721458435,-0.02,-0.06,0.09,0.11
367.7219271659851,-0.05,-0.06,0.07,0.1
